File: data.csv
sample1,,sample2,,sample3,,sample4,,sample5,,sample6,,vzorek1,,vzorek2,,vzorek3,,specimen0,,specimen1,,specimen2,,
Wavelength (nm),Abs,Wavelength (nm),Abs,Wavelength (nm),Abs,Wavelength (nm),Abs,Wavelength (nm),Abs,Wavelength (nm),Abs,Wavelength (nm),Abs,Wavelength (nm),Abs,Wavelength (nm),Abs,Wavelength (nm),Abs,Wavelength (nm),Abs,Wavelength (nm),Abs,
799.994,0.740815,500.015,0.770008,600.008,0.750652,600.008,0.749855,600.008,0.749947,999.995,0.698498,999.995,0.687617,500.015,0.765903,500.015,0.764849,500.015,0.768106,500.015,0.763188,999.995,0.687136,
797.488,0.739903,490.005,0.768863,575.009,0.749304,575.009,0.74795,594.991,0.746226,975.003,0.727053,975.003,0.725107,475.011,0.773219,494.994,0.768412,494.994,0.768841,475.011,0.774376,998.986,0.688478,
795.014,0.740704,480.014,0.771489,550.004,0.747037,550.004,0.747808,590.005,0.746837,950.003,0.958189,950.003,0.958513,449.998,0.788149,490.005,0.770522,490.005,0.767515,449.998,0.787562,998.008,0.69183,
792.502,0.740568,470.002,0.773495,525.003,0.750469,525.003,0.749625,585.013,0.746531,924.988,0.734135,924.988,0.732802,424.986,0.800656,485.012,0.775488,485.012,0.774586,424.986,0.807187,996.998,0.692284,
789.989,0.740364,460.01,0.786278,500.015,0.766778,500.015,0.764287,580.014,0.74804,900.012,0.723463,900.012,0.719183,399.982,0.81477,480.014,0.770388,480.014,0.768063,399.982,0.819479,995.987,0.697136,
787.508,0.739588,449.998,0.791751,475.011,0.772864,475.011,0.777526,575.009,0.747328,874.996,0.741683,874.996,0.733412,374.993,0.841589,475.011,0.772896,475.011,0.768808,374.993,0.840643,995.007,0.694925,
784.989,0.7389,440.007,0.791722,449.998,0.789312,449.998,0.793976,569.998,0.746431,849.993,0.73289,849.993,0.74153,349.989,0.880061,470.002,0.774316,470.002,0.773232,349.989,0.883117,993.995,0.697677,
782.503,0.738224,429.997,0.799394,424.986,0.805358,424.986,0.792541,565.017,0.746786,824.987,0.746061,824.987,0.744386,325.016,0.920489,464.989,0.778546,464.989,0.778781,325.016,0.919222,993.014,0.69671,
780.015,0.736893,420.009,0.79868,399.982,0.805825,399.982,0.812932,559.994,0.747783,799.994,0.739254,799.994,0.73626,300.002,1.08386,460.01,0.782958,460.01,0.784651,300.002,1.03633,992.001,0.691621,
777.489,0.738579,410.004,0.814826,374.993,0.839684,374.993,0.829645,555.002,0.748854,774.996,0.732735,774.996,0.742345,274.992,1.84308,454.987,0.785157,454.987,0.788611,274.992,1.41068,990.987,0.696258,
774.996,0.737839,399.982,0.820446,349.989,0.884079,349.989,0.876011,550.004,0.746964,750.007,0.731211,750.007,0.729837,249.995,1.6451,449.998,0.791381,449.998,0.790327,249.995,1.43171,990.005,0.702301,
772.5,0.737528,389.983,0.825869,325.016,0.930282,325.016,0.917552,545,0.750016,725.006,0.73788,725.006,0.740393,225.017,2.56761,445.005,0.79146,445.005,0.793083,225.017,2.51355,988.99,0.698732,
770.002,0.734556,380.007,0.834307,300.002,0.996422,300.002,0.989801,539.99,0.74525,700.007,0.723188,700.007,0.729438,199.984,3.90777,440.007,0.794709,440.007,0.792318,199.984,3.92523,988.005,0.698097,
767.502,0.735793,370.016,0.843293,274.992,1.11625,274.992,1.10855,535.013,0.750898,674.984,0.745009,674.984,0.740685,,,435.004,0.799788,435.004,0.797089,,,986.989,0.70188,
765,0.73492,360.01,0.856866,249.995,1.29064,249.995,1.28681,529.992,0.756663,649.988,0.738962,649.988,0.738789,,,429.997,0.799425,429.997,0.798597,,,986.004,0.70781,
762.495,0.734667,349.989,0.883393,225.017,1.55388,225.017,1.59174,525.003,0.749782,624.992,0.742165,624.992,0.743289,,,424.986,0.803946,424.986,0.802417,,,984.987,0.708945,
759.987,0.734481,339.994,0.892228,199.984,2.51908,199.984,2.76171,520.008,0.757201,600.008,0.750374,600.008,0.751469,,,420.009,0.799612,420.009,0.802636,,,984,0.711495,
757.513,0.734103,329.986,0.907412,,,,,515.009,0.757657,575.009,0.746921,575.009,0.746874,,,414.989,0.808137,414.989,0.806001,,,983.014,0.7096,
755.002,0.734541,320.004,0.937776,,,,,510.003,0.760719,550.004,0.747389,550.004,0.741343,,,410.004,0.810601,410.004,0.806343,,,981.994,0.713964,
752.488,0.734561,310.009,0.949642,,,,,504.993,0.764882,525.003,0.752438,525.003,0.745867,,,405.014,0.812773,405.014,0.812003,,,981.007,0.722014,
750.007,0.734173,300.002,0.993107,,,,,500.015,0.76831,500.015,0.766955,500.015,0.766192,,,399.982,0.816511,399.982,0.814952,,,979.986,0.720301,
747.488,0.734094,289.983,1.0352,,,,,494.994,0.770323,475.011,0.770482,475.011,0.775088,,,394.984,0.823194,394.984,0.821022,,,978.997,0.71335,
745.003,0.734522,279.992,1.08205,,,,,490.005,0.769136,449.998,0.793479,449.998,0.789882,,,389.983,0.823416,389.983,0.821689,,,978.007,0.71549,
742.515,0.733293,269.99,1.13095,,,,,485.012,0.775778,424.986,0.802934,424.986,0.804354,,,385.016,0.830041,385.016,0.83046,,,976.985,0.722545,
739.99,0.73412,260.017,1.18237,,,,,480.014,0.771979,399.982,0.814814,399.982,0.817415,,,380.007,0.833932,380.007,0.834605,,,975.994,0.728209,
737.498,0.734962,249.995,1.29619,,,,,475.011,0.773811,374.993,0.842862,374.993,0.840759,,,374.993,0.839505,374.993,0.839711,,,975.003,0.726864,
735.004,0.73475,240.003,1.3973,,,,,470.002,0.775722,349.989,0.874032,349.989,0.885373,,,370.016,0.849362,370.016,0.847577,,,974.011,0.73305,
732.508,0.737075,230.001,1.53457,,,,,464.989,0.778805,325.016,0.927409,325.016,0.918818,,,364.995,0.856784,364.995,0.857814,,,972.986,0.735647,
730.009,0.737921,219.99,1.67866,,,,,460.01,0.785186,300.002,0.997529,300.002,1.09328,,,360.01,0.858064,360.01,0.859664,,,971.993,0.737729,
727.509,0.740349,210.011,1.97533,,,,,454.987,0.789708,274.992,1.10846,274.992,1.84756,,,354.982,0.869987,354.982,0.869069,,,971,0.741773,
725.006,0.741026,199.984,2.52636,,,,,449.998,0.791183,249.995,1.29349,249.995,1.63043,,,349.989,0.878596,349.989,0.880438,,,970.005,0.748011,
722.501,0.738721,,,,,,,445.005,0.792233,225.017,1.59782,225.017,3.10823,,,344.994,0.885436,344.994,0.882857,,,969.01,0.748541,
719.994,0.732346,,,,,,,440.007,0.795904,199.984,2.72934,199.984,4.00303,,,339.994,0.894126,339.994,0.895765,,,967.983,0.761733,
717.485,0.724631,,,,,,,435.004,0.801647,,,,,,,334.992,0.905245,334.992,0.905674,,,966.987,0.759723,
715.01,0.723952,,,,,,,429.997,0.802081,,,,,,,329.986,0.913225,329.986,0.911069,,,965.991,0.763162,
712.496,0.724323,,,,,,,424.986,0.803322,,,,,,,325.016,0.927376,325.016,0.921852,,,964.994,0.77314,
710.017,0.722976,,,,,,,420.009,0.804861,,,,,,,320.004,0.934908,320.004,0.933162,,,963.996,0.780591,
707.499,0.726466,,,,,,,414.989,0.806721,,,,,,,314.988,0.937948,314.988,0.938079,,,962.998,0.790277,
705.016,0.726332,,,,,,,410.004,0.806886,,,,,,,310.009,0.958267,310.009,0.957364,,,961.999,0.793505,
702.494,0.730273,,,,,,,405.014,0.816852,,,,,,,304.987,0.99185,304.987,0.980679,,,961,0.808812,
700.007,0.726716,,,,,,,399.982,0.816686,,,,,,,300.002,1.09159,300.002,1.03278,,,960,0.809353,
697.517,0.730679,,,,,,,394.984,0.82629,,,,,,,295.013,1.32076,295.013,1.12964,,,959,0.822707,
694.989,0.732888,,,,,,,389.983,0.820692,,,,,,,289.983,1.62863,289.983,1.27308,,,957.999,0.832325,
692.495,0.736192,,,,,,,385.016,0.831995,,,,,,,284.989,1.76747,284.989,1.34056,,,956.997,0.844752,
690,0.736334,,,,,,,380.007,0.834288,,,,,,,279.992,1.84234,279.992,1.38821,,,955.995,0.85389,
687.502,0.738706,,,,,,,374.993,0.83951,,,,,,,274.992,1.8288,274.992,1.40351,,,954.992,0.876311,
685.003,0.739934,,,,,,,370.016,0.846919,,,,,,,269.99,1.79664,269.99,1.39245,,,953.989,0.883974,
682.501,0.740131,,,,,,,364.995,0.857384,,,,,,,264.985,1.721,264.985,1.3823,,,952.985,0.901711,
679.997,0.74069,,,,,,,360.01,0.85805,,,,,,,260.017,1.6404,260.017,1.36418,,,951.981,0.914944,
677.492,0.741799,,,,,,,354.982,0.871274,,,,,,,255.008,1.61617,255.008,1.39319,,,951.009,0.931618,
674.984,0.742201,,,,,,,349.989,0.879379,,,,,,,249.995,1.63968,249.995,1.43014,,,950.003,0.95081,
672.512,0.742692,,,,,,,344.994,0.885892,,,,,,,244.98,1.80085,244.98,1.52298,,,948.998,0.973987,
670,0.743207,,,,,,,339.994,0.895183,,,,,,,240.003,2.1588,240.003,1.69871,,,947.991,0.98348,
667.487,0.743694,,,,,,,334.992,0.905665,,,,,,,234.983,2.94659,234.983,2.07929,,,946.984,1.00866,
665.008,0.743669,,,,,,,329.986,0.909619,,,,,,,230.001,3.59553,230.001,2.767,,,946.009,1.01823,
662.492,0.743997,,,,,,,325.016,0.924492,,,,,,,225.017,3.70911,225.017,3.33143,,,945.001,1.03443,
660.009,0.73917,,,,,,,320.004,0.935934,,,,,,,219.99,3.67669,219.99,3.58709,,,943.992,1.04264,
657.488,0.742905,,,,,,,314.988,0.934541,,,,,,,215.002,3.8812,215.002,3.80587,,,942.983,1.0446,
655.002,0.742955,,,,,,,310.009,0.956768,,,,,,,210.011,3.83312,210.011,3.99649,,,942.006,1.03559,
652.514,0.7422,,,,,,,304.987,0.974925,,,,,,,205.018,3.97499,205.018,3.86817,,,940.996,1.02434,
649.988,0.74346,,,,,,,300.002,0.999644,,,,,,,199.984,3.90824,199.984,4.042,,,939.985,0.993779,
647.497,0.744879,,,,,,,,,,,,,,,194.987,4.0312,194.987,3.96635,,,939.006,0.967935,
645.003,0.744172,,,,,,,,,,,,,,,189.989,3.7199,189.989,3.68105,,,937.994,0.925201,
642.508,0.742796,,,,,,,,,,,,,,,,,,,,,936.982,0.882104,
640.011,0.744966,,,,,,,,,,,,,,,,,,,,,936.002,0.845575,
637.512,0.744855,,,,,,,,,,,,,,,,,,,,,934.988,0.814217,
635.012,0.744833,,,,,,,,,,,,,,,,,,,,,934.007,0.789869,
632.51,0.74503,,,,,,,,,,,,,,,,,,,,,932.992,0.766486,
630.006,0.745982,,,,,,,,,,,,,,,,,,,,,932.01,0.75975,
627.5,0.744282,,,,,,,,,,,,,,,,,,,,,930.994,0.753622,
624.992,0.745976,,,,,,,,,,,,,,,,,,,,,930.011,0.744414,
622.483,0.74594,,,,,,,,,,,,,,,,,,,,,928.995,0.742307,
620.009,0.746843,,,,,,,,,,,,,,,,,,,,,928.01,0.740547,
617.496,0.746923,,,,,,,,,,,,,,,,,,,,,926.992,0.738433,
614.982,0.747155,,,,,,,,,,,,,,,,,,,,,926.007,0.734112,
612.503,0.747516,,,,,,,,,,,,,,,,,,,,,924.988,0.725915,
609.985,0.743069,,,,,,,,,,,,,,,,,,,,,924.002,0.72249,
607.503,0.749196,,,,,,,,,,,,,,,,,,,,,922.982,0.725759,
605.018,0.746639,,,,,,,,,,,,,,,,,,,,,921.994,0.723383,
602.496,0.747209,,,,,,,,,,,,,,,,,,,,,921.007,0.720918,
600.008,0.749782,,,,,,,,,,,,,,,,,,,,,919.985,0.717653,
597.482,0.746824,,,,,,,,,,,,,,,,,,,,,918.996,0.718555,
594.991,0.748263,,,,,,,,,,,,,,,,,,,,,918.007,0.718297,
592.499,0.749622,,,,,,,,,,,,,,,,,,,,,916.984,0.719426,
590.005,0.748771,,,,,,,,,,,,,,,,,,,,,915.993,0.710327,
587.51,0.746136,,,,,,,,,,,,,,,,,,,,,915.002,0.710806,
585.013,0.748665,,,,,,,,,,,,,,,,,,,,,914.011,0.711835,
582.514,0.749518,,,,,,,,,,,,,,,,,,,,,912.986,0.712242,
580.014,0.749079,,,,,,,,,,,,,,,,,,,,,911.993,0.716529,
577.512,0.749199,,,,,,,,,,,,,,,,,,,,,911,0.711693,
575.009,0.747918,,,,,,,,,,,,,,,,,,,,,910.007,0.712371,
572.504,0.746369,,,,,,,,,,,,,,,,,,,,,908.98,0.711564,
569.998,0.748691,,,,,,,,,,,,,,,,,,,,,907.985,0.715612,
567.49,0.750015,,,,,,,,,,,,,,,,,,,,,906.991,0.718266,
565.017,0.746699,,,,,,,,,,,,,,,,,,,,,905.995,0.715787,
562.507,0.749092,,,,,,,,,,,,,,,,,,,,,904.999,0.717232,
559.994,0.747063,,,,,,,,,,,,,,,,,,,,,904.003,0.710411,
557.517,0.748626,,,,,,,,,,,,,,,,,,,,,903.006,0.711443,
555.002,0.749681,,,,,,,,,,,,,,,,,,,,,902.008,0.717254,
552.485,0.747346,,,,,,,,,,,,,,,,,,,,,901.01,0.717048,
550.004,0.749312,,,,,,,,,,,,,,,,,,,,,899.979,0.715969,
547.484,0.746826,,,,,,,,,,,,,,,,,,,,,898.98,0.718067,
545,0.750242,,,,,,,,,,,,,,,,,,,,,897.981,0.720482,
542.515,0.750124,,,,,,,,,,,,,,,,,,,,,896.981,0.718658,
539.99,0.744048,,,,,,,,,,,,,,,,,,,,,895.98,0.723596,
537.502,0.752513,,,,,,,,,,,,,,,,,,,,,894.98,0.716639,
535.013,0.751445,,,,,,,,,,,,,,,,,,,,,893.978,0.717666,
532.484,0.747008,,,,,,,,,,,,,,,,,,,,,893.01,0.720978,
529.992,0.757257,,,,,,,,,,,,,,,,,,,,,892.008,0.719739,
527.498,0.749014,,,,,,,,,,,,,,,,,,,,,891.005,0.722716,
525.003,0.74901,,,,,,,,,,,,,,,,,,,,,890.001,0.72253,
522.506,0.75475,,,,,,,,,,,,,,,,,,,,,888.998,0.724302,
520.008,0.759202,,,,,,,,,,,,,,,,,,,,,887.994,0.726554,
517.509,0.754671,,,,,,,,,,,,,,,,,,,,,886.989,0.73046,
515.009,0.758708,,,,,,,,,,,,,,,,,,,,,885.984,0.732107,
512.507,0.760888,,,,,,,,,,,,,,,,,,,,,884.978,0.732705,
510.003,0.761603,,,,,,,,,,,,,,,,,,,,,884.006,0.734912,
507.499,0.763003,,,,,,,,,,,,,,,,,,,,,882.999,0.741713,
504.993,0.765087,,,,,,,,,,,,,,,,,,,,,881.992,0.735511,
502.485,0.766597,,,,,,,,,,,,,,,,,,,,,880.984,0.736478,
500.015,0.769188,,,,,,,,,,,,,,,,,,,,,879.976,0.735547,
497.505,0.768288,,,,,,,,,,,,,,,,,,,,,879.001,0.7398,
494.994,0.769326,,,,,,,,,,,,,,,,,,,,,877.992,0.739262,
492.481,0.775106,,,,,,,,,,,,,,,,,,,,,876.983,0.740799,
490.005,0.770216,,,,,,,,,,,,,,,,,,,,,876.007,0.741211,
487.49,0.768327,,,,,,,,,,,,,,,,,,,,,874.996,0.742863,
485.012,0.776838,,,,,,,,,,,,,,,,,,,,,873.986,0.736797,
482.494,0.764834,,,,,,,,,,,,,,,,,,,,,873.008,0.734185,
480.014,0.771713,,,,,,,,,,,,,,,,,,,,,871.996,0.737835,
477.494,0.7729,,,,,,,,,,,,,,,,,,,,,870.984,0.735986,
475.011,0.771977,,,,,,,,,,,,,,,,,,,,,870.005,0.730275,
472.488,0.775057,,,,,,,,,,,,,,,,,,,,,868.992,0.73324,
470.002,0.777202,,,,,,,,,,,,,,,,,,,,,867.978,0.735334,
467.516,0.779219,,,,,,,,,,,,,,,,,,,,,866.998,0.731798,
464.989,0.779895,,,,,,,,,,,,,,,,,,,,,865.983,0.729932,
462.5,0.784395,,,,,,,,,,,,,,,,,,,,,865.002,0.730903,
460.01,0.784955,,,,,,,,,,,,,,,,,,,,,863.987,0.730881,
457.518,0.785449,,,,,,,,,,,,,,,,,,,,,863.005,0.727092,
454.987,0.788817,,,,,,,,,,,,,,,,,,,,,861.988,0.72778,
452.493,0.791348,,,,,,,,,,,,,,,,,,,,,861.005,0.730147,
449.998,0.793429,,,,,,,,,,,,,,,,,,,,,859.988,0.726673,
447.502,0.792097,,,,,,,,,,,,,,,,,,,,,859.004,0.734763,
445.005,0.793395,,,,,,,,,,,,,,,,,,,,,857.986,0.728009,
442.506,0.797066,,,,,,,,,,,,,,,,,,,,,857.001,0.733994,
440.007,0.796777,,,,,,,,,,,,,,,,,,,,,855.982,0.732568,
437.506,0.797018,,,,,,,,,,,,,,,,,,,,,854.996,0.733736,
435.004,0.800103,,,,,,,,,,,,,,,,,,,,,853.976,0.732646,
432.501,0.801084,,,,,,,,,,,,,,,,,,,,,852.99,0.734495,
429.997,0.802349,,,,,,,,,,,,,,,,,,,,,852.003,0.735057,
427.492,0.803997,,,,,,,,,,,,,,,,,,,,,850.981,0.738003,
424.986,0.803372,,,,,,,,,,,,,,,,,,,,,849.993,0.734491,
422.517,0.805359,,,,,,,,,,,,,,,,,,,,,849.005,0.737887,
420.009,0.801679,,,,,,,,,,,,,,,,,,,,,847.982,0.737531,
417.5,0.805625,,,,,,,,,,,,,,,,,,,,,846.993,0.734208,
414.989,0.806729,,,,,,,,,,,,,,,,,,,,,846.004,0.741119,
412.516,0.810028,,,,,,,,,,,,,,,,,,,,,844.979,0.732554,
410.004,0.806473,,,,,,,,,,,,,,,,,,,,,843.989,0.73764,
407.49,0.813842,,,,,,,,,,,,,,,,,,,,,842.998,0.734166,
405.014,0.812548,,,,,,,,,,,,,,,,,,,,,842.007,0.73801,
402.499,0.815268,,,,,,,,,,,,,,,,,,,,,840.981,0.737451,
399.982,0.81989,,,,,,,,,,,,,,,,,,,,,839.989,0.735277,
397.503,0.821012,,,,,,,,,,,,,,,,,,,,,838.996,0.737273,
394.984,0.825576,,,,,,,,,,,,,,,,,,,,,838.003,0.742524,
392.503,0.827641,,,,,,,,,,,,,,,,,,,,,836.976,0.740031,
389.983,0.825046,,,,,,,,,,,,,,,,,,,,,835.982,0.741753,
387.5,0.829197,,,,,,,,,,,,,,,,,,,,,834.987,0.73889,
385.016,0.830728,,,,,,,,,,,,,,,,,,,,,833.993,0.737568,
382.492,0.83254,,,,,,,,,,,,,,,,,,,,,832.998,0.740705,
380.007,0.836673,,,,,,,,,,,,,,,,,,,,,832.002,0.739746,
377.481,0.837876,,,,,,,,,,,,,,,,,,,,,831.006,0.741368,
374.993,0.841536,,,,,,,,,,,,,,,,,,,,,829.975,0.742652,
372.505,0.847369,,,,,,,,,,,,,,,,,,,,,828.978,0.745545,
370.016,0.848287,,,,,,,,,,,,,,,,,,,,,827.981,0.736834,
367.486,0.854055,,,,,,,,,,,,,,,,,,,,,826.984,0.741905,
364.995,0.858042,,,,,,,,,,,,,,,,,,,,,825.985,0.743434,
362.503,0.865818,,,,,,,,,,,,,,,,,,,,,824.987,0.74719,
360.01,0.85898,,,,,,,,,,,,,,,,,,,,,823.988,0.745827,
357.516,0.862818,,,,,,,,,,,,,,,,,,,,,822.989,0.739566,
354.982,0.873465,,,,,,,,,,,,,,,,,,,,,821.989,0.737642,
352.486,0.877515,,,,,,,,,,,,,,,,,,,,,820.989,0.737127,
349.989,0.881797,,,,,,,,,,,,,,,,,,,,,819.988,0.741169,
347.492,0.887191,,,,,,,,,,,,,,,,,,,,,818.987,0.742067,
344.994,0.885769,,,,,,,,,,,,,,,,,,,,,817.986,0.741686,
342.494,0.891124,,,,,,,,,,,,,,,,,,,,,816.984,0.74039,
339.994,0.896792,,,,,,,,,,,,,,,,,,,,,815.981,0.741342,
337.493,0.896085,,,,,,,,,,,,,,,,,,,,,814.979,0.738467,
334.992,0.90483,,,,,,,,,,,,,,,,,,,,,813.976,0.744079,
332.489,0.903251,,,,,,,,,,,,,,,,,,,,,812.972,0.743133,
329.986,0.910438,,,,,,,,,,,,,,,,,,,,,812.003,0.740889,
327.482,0.919438,,,,,,,,,,,,,,,,,,,,,810.999,0.737423,
325.016,0.924531,,,,,,,,,,,,,,,,,,,,,809.994,0.738205,
322.51,0.92466,,,,,,,,,,,,,,,,,,,,,808.989,0.738688,
320.004,0.932748,,,,,,,,,,,,,,,,,,,,,807.983,0.73948,
317.496,0.939999,,,,,,,,,,,,,,,,,,,,,806.977,0.740029,
314.988,0.936625,,,,,,,,,,,,,,,,,,,,,805.971,0.739261,
312.518,0.950855,,,,,,,,,,,,,,,,,,,,,804.999,0.740738,
310.009,0.956637,,,,,,,,,,,,,,,,,,,,,803.992,0.736694,
307.498,0.965228,,,,,,,,,,,,,,,,,,,,,802.984,0.734762,
304.987,0.976676,,,,,,,,,,,,,,,,,,,,,801.976,0.738374,
302.514,0.982999,,,,,,,,,,,,,,,,,,,,,801.003,0.7405,
300.002,0.998561,,,,,,,,,,,,,,,,,,,,,799.994,0.736542,
297.488,0.99789,,,,,,,,,,,,,,,,,,,,,798.985,0.738692,
295.013,1.01368,,,,,,,,,,,,,,,,,,,,,797.975,0.740042,
292.498,1.03106,,,,,,,,,,,,,,,,,,,,,797,0.73887,
289.983,1.04138,,,,,,,,,,,,,,,,,,,,,795.99,0.736473,
287.506,1.0549,,,,,,,,,,,,,,,,,,,,,794.979,0.737946,
284.989,1.06473,,,,,,,,,,,,,,,,,,,,,794.003,0.73775,
282.51,1.0752,,,,,,,,,,,,,,,,,,,,,792.991,0.739698,
279.992,1.08152,,,,,,,,,,,,,,,,,,,,,791.979,0.738042,
277.512,1.09975,,,,,,,,,,,,,,,,,,,,,791.001,0.738092,
274.992,1.11472,,,,,,,,,,,,,,,,,,,,,789.989,0.739615,
272.511,1.11751,,,,,,,,,,,,,,,,,,,,,788.976,0.736071,
269.99,1.13086,,,,,,,,,,,,,,,,,,,,,787.997,0.737176,
267.508,1.13999,,,,,,,,,,,,,,,,,,,,,786.983,0.737161,
264.985,1.15922,,,,,,,,,,,,,,,,,,,,,786.004,0.739702,
262.502,1.18284,,,,,,,,,,,,,,,,,,,,,784.989,0.734926,
260.017,1.18182,,,,,,,,,,,,,,,,,,,,,783.974,0.733728,
257.493,1.21225,,,,,,,,,,,,,,,,,,,,,782.993,0.735559,
255.008,1.2459,,,,,,,,,,,,,,,,,,,,,781.977,0.734382,
252.482,1.25644,,,,,,,,,,,,,,,,,,,,,780.996,0.73718,
249.995,1.29443,,,,,,,,,,,,,,,,,,,,,779.979,0.737019,
247.508,1.28696,,,,,,,,,,,,,,,,,,,,,778.997,0.735348,
244.98,1.34066,,,,,,,,,,,,,,,,,,,,,777.98,0.735595,
242.492,1.34987,,,,,,,,,,,,,,,,,,,,,776.997,0.736285,
240.003,1.39305,,,,,,,,,,,,,,,,,,,,,775.979,0.734996,
237.513,1.43422,,,,,,,,,,,,,,,,,,,,,774.996,0.735736,
234.983,1.45844,,,,,,,,,,,,,,,,,,,,,773.977,0.734938,
232.492,1.50479,,,,,,,,,,,,,,,,,,,,,772.992,0.736354,
230.001,1.52314,,,,,,,,,,,,,,,,,,,,,771.973,0.736577,
227.509,1.54273,,,,,,,,,,,,,,,,,,,,,770.988,0.734733,
225.017,1.60666,,,,,,,,,,,,,,,,,,,,,770.002,0.732945,
222.484,1.64047,,,,,,,,,,,,,,,,,,,,,768.981,0.737305,
219.99,1.68315,,,,,,,,,,,,,,,,,,,,,767.995,0.736526,
217.496,1.73507,,,,,,,,,,,,,,,,,,,,,766.974,0.737076,
215.002,1.79883,,,,,,,,,,,,,,,,,,,,,765.987,0.73666,
212.507,1.88935,,,,,,,,,,,,,,,,,,,,,765,0.733166,
210.011,2.00114,,,,,,,,,,,,,,,,,,,,,763.977,0.732735,
207.515,2.14097,,,,,,,,,,,,,,,,,,,,,762.989,0.731357,
205.018,2.2812,,,,,,,,,,,,,,,,,,,,,762,0.734475,
202.481,2.40937,,,,,,,,,,,,,,,,,,,,,760.977,0.734342,
199.984,2.52979,,,,,,,,,,,,,,,,,,,,,759.987,0.734555,
,,,,,,,,,,,,,,,,,,,,,,758.998,0.731634,
,,,,,,,,,,,,,,,,,,,,,,757.973,0.731792,
,,,,,,,,,,,,,,,,,,,,,,756.983,0.732888,
,,,,,,,,,,,,,,,,,,,,,,755.992,0.73289,
,,,,,,,,,,,,,,,,,,,,,,755.002,0.733007,
,,,,,,,,,,,,,,,,,,,,,,753.975,0.732886,
,,,,,,,,,,,,,,,,,,,,,,752.984,0.732995,
,,,,,,,,,,,,,,,,,,,,,,751.992,0.731555,
,,,,,,,,,,,,,,,,,,,,,,750.999,0.73322,
,,,,,,,,,,,,,,,,,,,,,,749.971,0.729988,
,,,,,,,,,,,,,,,,,,,,,,748.978,0.733756,
,,,,,,,,,,,,,,,,,,,,,,747.985,0.731336,
,,,,,,,,,,,,,,,,,,,,,,746.991,0.734811,
,,,,,,,,,,,,,,,,,,,,,,745.997,0.732302,
,,,,,,,,,,,,,,,,,,,,,,744.967,0.730178,
,,,,,,,,,,,,,,,,,,,,,,743.973,0.729186,
,,,,,,,,,,,,,,,,,,,,,,742.978,0.732337,
,,,,,,,,,,,,,,,,,,,,,,741.982,0.732294,
,,,,,,,,,,,,,,,,,,,,,,740.986,0.733502,
,,,,,,,,,,,,,,,,,,,,,,739.99,0.733168,
,,,,,,,,,,,,,,,,,,,,,,738.994,0.732814,
,,,,,,,,,,,,,,,,,,,,,,737.997,0.730992,
,,,,,,,,,,,,,,,,,,,,,,737,0.731262,
,,,,,,,,,,,,,,,,,,,,,,735.966,0.732562,
,,,,,,,,,,,,,,,,,,,,,,734.969,0.733824,
,,,,,,,,,,,,,,,,,,,,,,733.97,0.732695,
,,,,,,,,,,,,,,,,,,,,,,732.972,0.732662,
,,,,,,,,,,,,,,,,,,,,,,731.973,0.7358,
,,,,,,,,,,,,,,,,,,,,,,730.973,0.733955,
,,,,,,,,,,,,,,,,,,,,,,729.974,0.735397,
,,,,,,,,,,,,,,,,,,,,,,728.974,0.737707,
,,,,,,,,,,,,,,,,,,,,,,727.973,0.736469,
,,,,,,,,,,,,,,,,,,,,,,726.973,0.737501,
,,,,,,,,,,,,,,,,,,,,,,725.972,0.735496,
,,,,,,,,,,,,,,,,,,,,,,724.97,0.739333,
,,,,,,,,,,,,,,,,,,,,,,723.969,0.738404,
,,,,,,,,,,,,,,,,,,,,,,722.967,0.735384,
,,,,,,,,,,,,,,,,,,,,,,722,0.734161,
,,,,,,,,,,,,,,,,,,,,,,720.997,0.733402,
,,,,,,,,,,,,,,,,,,,,,,719.994,0.730202,
,,,,,,,,,,,,,,,,,,,,,,718.991,0.729853,
,,,,,,,,,,,,,,,,,,,,,,717.987,0.724579,
,,,,,,,,,,,,,,,,,,,,,,716.983,0.721095,
,,,,,,,,,,,,,,,,,,,,,,715.979,0.720922,
,,,,,,,,,,,,,,,,,,,,,,714.974,0.722379,
,,,,,,,,,,,,,,,,,,,,,,713.969,0.722336,
,,,,,,,,,,,,,,,,,,,,,,712.999,0.721057,
,,,,,,,,,,,,,,,,,,,,,,711.994,0.722942,
,,,,,,,,,,,,,,,,,,,,,,710.987,0.721399,
,,,,,,,,,,,,,,,,,,,,,,709.981,0.722239,
,,,,,,,,,,,,,,,,,,,,,,708.974,0.725488,
,,,,,,,,,,,,,,,,,,,,,,707.967,0.722951,
,,,,,,,,,,,,,,,,,,,,,,706.996,0.725092,
,,,,,,,,,,,,,,,,,,,,,,705.988,0.726341,
,,,,,,,,,,,,,,,,,,,,,,704.98,0.725501,
,,,,,,,,,,,,,,,,,,,,,,703.971,0.7268,
,,,,,,,,,,,,,,,,,,,,,,702.999,0.727454,
,,,,,,,,,,,,,,,,,,,,,,701.99,0.727633,
,,,,,,,,,,,,,,,,,,,,,,700.98,0.727935,
,,,,,,,,,,,,,,,,,,,,,,699.97,0.722575,
,,,,,,,,,,,,,,,,,,,,,,698.997,0.724345,
,,,,,,,,,,,,,,,,,,,,,,697.986,0.727098,
,,,,,,,,,,,,,,,,,,,,,,696.975,0.729561,
,,,,,,,,,,,,,,,,,,,,,,695.964,0.73188,
,,,,,,,,,,,,,,,,,,,,,,694.989,0.730649,
,,,,,,,,,,,,,,,,,,,,,,693.977,0.73111,
,,,,,,,,,,,,,,,,,,,,,,692.965,0.735024,
,,,,,,,,,,,,,,,,,,,,,,691.989,0.733147,
,,,,,,,,,,,,,,,,,,,,,,690.977,0.732348,
,,,,,,,,,,,,,,,,,,,,,,689.964,0.733564,
,,,,,,,,,,,,,,,,,,,,,,688.987,0.736241,
,,,,,,,,,,,,,,,,,,,,,,687.973,0.735161,
,,,,,,,,,,,,,,,,,,,,,,686.995,0.736009,
,,,,,,,,,,,,,,,,,,,,,,685.981,0.737533,
,,,,,,,,,,,,,,,,,,,,,,684.966,0.739855,
,,,,,,,,,,,,,,,,,,,,,,683.988,0.739397,
,,,,,,,,,,,,,,,,,,,,,,682.972,0.739733,
,,,,,,,,,,,,,,,,,,,,,,681.993,0.736888,
,,,,,,,,,,,,,,,,,,,,,,680.977,0.735339,
,,,,,,,,,,,,,,,,,,,,,,679.997,0.7364,
,,,,,,,,,,,,,,,,,,,,,,678.981,0.73614,
,,,,,,,,,,,,,,,,,,,,,,677.964,0.740107,
,,,,,,,,,,,,,,,,,,,,,,676.983,0.737797,
,,,,,,,,,,,,,,,,,,,,,,675.966,0.737843,
,,,,,,,,,,,,,,,,,,,,,,674.984,0.740089,
,,,,,,,,,,,,,,,,,,,,,,673.966,0.737367,
,,,,,,,,,,,,,,,,,,,,,,672.985,0.739845,
,,,,,,,,,,,,,,,,,,,,,,671.966,0.742005,
,,,,,,,,,,,,,,,,,,,,,,670.983,0.741866,
,,,,,,,,,,,,,,,,,,,,,,669.964,0.738664,
,,,,,,,,,,,,,,,,,,,,,,668.981,0.739742,
,,,,,,,,,,,,,,,,,,,,,,667.997,0.739186,
,,,,,,,,,,,,,,,,,,,,,,666.977,0.738611,
,,,,,,,,,,,,,,,,,,,,,,665.993,0.738536,
,,,,,,,,,,,,,,,,,,,,,,664.972,0.738868,
,,,,,,,,,,,,,,,,,,,,,,663.987,0.740228,
,,,,,,,,,,,,,,,,,,,,,,662.966,0.741661,
,,,,,,,,,,,,,,,,,,,,,,661.981,0.740476,
,,,,,,,,,,,,,,,,,,,,,,660.995,0.740785,
,,,,,,,,,,,,,,,,,,,,,,659.973,0.738978,
,,,,,,,,,,,,,,,,,,,,,,658.986,0.740587,
,,,,,,,,,,,,,,,,,,,,,,657.963,0.74001,
,,,,,,,,,,,,,,,,,,,,,,656.977,0.74148,
,,,,,,,,,,,,,,,,,,,,,,655.99,0.739832,
,,,,,,,,,,,,,,,,,,,,,,654.966,0.74066,
,,,,,,,,,,,,,,,,,,,,,,653.978,0.741032,
,,,,,,,,,,,,,,,,,,,,,,652.99,0.741909,
,,,,,,,,,,,,,,,,,,,,,,651.965,0.740373,
,,,,,,,,,,,,,,,,,,,,,,650.977,0.741483,
,,,,,,,,,,,,,,,,,,,,,,649.988,0.742542,
,,,,,,,,,,,,,,,,,,,,,,648.962,0.74226,
,,,,,,,,,,,,,,,,,,,,,,647.973,0.740469,
,,,,,,,,,,,,,,,,,,,,,,646.983,0.74011,
,,,,,,,,,,,,,,,,,,,,,,645.993,0.740179,
,,,,,,,,,,,,,,,,,,,,,,644.967,0.741577,
,,,,,,,,,,,,,,,,,,,,,,643.976,0.741964,
,,,,,,,,,,,,,,,,,,,,,,642.985,0.743384,
,,,,,,,,,,,,,,,,,,,,,,641.994,0.740863,
,,,,,,,,,,,,,,,,,,,,,,640.966,0.741808,
,,,,,,,,,,,,,,,,,,,,,,639.974,0.743959,
,,,,,,,,,,,,,,,,,,,,,,638.982,0.744106,
,,,,,,,,,,,,,,,,,,,,,,637.99,0.743027,
,,,,,,,,,,,,,,,,,,,,,,636.961,0.743571,
,,,,,,,,,,,,,,,,,,,,,,635.968,0.741575,
,,,,,,,,,,,,,,,,,,,,,,634.975,0.740489,
,,,,,,,,,,,,,,,,,,,,,,633.982,0.743725,
,,,,,,,,,,,,,,,,,,,,,,632.988,0.739303,
,,,,,,,,,,,,,,,,,,,,,,631.994,0.744017,
,,,,,,,,,,,,,,,,,,,,,,630.963,0.744123,
,,,,,,,,,,,,,,,,,,,,,,629.969,0.743048,
,,,,,,,,,,,,,,,,,,,,,,628.974,0.742047,
,,,,,,,,,,,,,,,,,,,,,,627.979,0.743033,
,,,,,,,,,,,,,,,,,,,,,,626.984,0.744082,
,,,,,,,,,,,,,,,,,,,,,,625.988,0.743237,
,,,,,,,,,,,,,,,,,,,,,,624.992,0.744374,
,,,,,,,,,,,,,,,,,,,,,,623.959,0.743165,
,,,,,,,,,,,,,,,,,,,,,,622.963,0.743365,
,,,,,,,,,,,,,,,,,,,,,,621.966,0.74393,
,,,,,,,,,,,,,,,,,,,,,,620.969,0.744063,
,,,,,,,,,,,,,,,,,,,,,,619.972,0.742023,
,,,,,,,,,,,,,,,,,,,,,,618.975,0.745277,
,,,,,,,,,,,,,,,,,,,,,,617.977,0.743857,
,,,,,,,,,,,,,,,,,,,,,,616.979,0.746031,
,,,,,,,,,,,,,,,,,,,,,,615.981,0.746652,
,,,,,,,,,,,,,,,,,,,,,,614.982,0.74521,
,,,,,,,,,,,,,,,,,,,,,,613.983,0.743818,
,,,,,,,,,,,,,,,,,,,,,,612.984,0.744254,
,,,,,,,,,,,,,,,,,,,,,,611.984,0.744695,
,,,,,,,,,,,,,,,,,,,,,,610.985,0.743785,
,,,,,,,,,,,,,,,,,,,,,,609.985,0.74133,
,,,,,,,,,,,,,,,,,,,,,,608.985,0.743144,
,,,,,,,,,,,,,,,,,,,,,,607.984,0.744466,
,,,,,,,,,,,,,,,,,,,,,,606.984,0.747045,
,,,,,,,,,,,,,,,,,,,,,,605.983,0.743417,
,,,,,,,,,,,,,,,,,,,,,,604.981,0.738185,
,,,,,,,,,,,,,,,,,,,,,,603.98,0.742992,
,,,,,,,,,,,,,,,,,,,,,,602.978,0.743828,
,,,,,,,,,,,,,,,,,,,,,,601.976,0.744839,
,,,,,,,,,,,,,,,,,,,,,,600.974,0.745123,
,,,,,,,,,,,,,,,,,,,,,,599.971,0.748141,
,,,,,,,,,,,,,,,,,,,,,,598.968,0.746615,
,,,,,,,,,,,,,,,,,,,,,,597.965,0.742415,
,,,,,,,,,,,,,,,,,,,,,,596.962,0.745044,
,,,,,,,,,,,,,,,,,,,,,,595.958,0.743481,
,,,,,,,,,,,,,,,,,,,,,,594.991,0.746236,
,,,,,,,,,,,,,,,,,,,,,,593.987,0.745821,
,,,,,,,,,,,,,,,,,,,,,,592.983,0.746315,
,,,,,,,,,,,,,,,,,,,,,,591.978,0.746718,
,,,,,,,,,,,,,,,,,,,,,,590.973,0.747165,
,,,,,,,,,,,,,,,,,,,,,,589.968,0.745328,
,,,,,,,,,,,,,,,,,,,,,,588.963,0.743383,
,,,,,,,,,,,,,,,,,,,,,,587.957,0.745794,
,,,,,,,,,,,,,,,,,,,,,,586.988,0.74443,
,,,,,,,,,,,,,,,,,,,,,,585.982,0.746559,
,,,,,,,,,,,,,,,,,,,,,,584.976,0.746804,
,,,,,,,,,,,,,,,,,,,,,,583.969,0.743951,
,,,,,,,,,,,,,,,,,,,,,,582.962,0.747411,
,,,,,,,,,,,,,,,,,,,,,,581.992,0.745507,
,,,,,,,,,,,,,,,,,,,,,,580.984,0.746,
,,,,,,,,,,,,,,,,,,,,,,579.977,0.747075,
,,,,,,,,,,,,,,,,,,,,,,578.969,0.745882,
,,,,,,,,,,,,,,,,,,,,,,577.96,0.746977,
,,,,,,,,,,,,,,,,,,,,,,576.989,0.747417,
,,,,,,,,,,,,,,,,,,,,,,575.98,0.746458,
,,,,,,,,,,,,,,,,,,,,,,574.971,0.74584,
,,,,,,,,,,,,,,,,,,,,,,573.962,0.745865,
,,,,,,,,,,,,,,,,,,,,,,572.99,0.743458,
,,,,,,,,,,,,,,,,,,,,,,571.98,0.744787,
,,,,,,,,,,,,,,,,,,,,,,570.97,0.747564,
,,,,,,,,,,,,,,,,,,,,,,569.96,0.743205,
,,,,,,,,,,,,,,,,,,,,,,568.987,0.744913,
,,,,,,,,,,,,,,,,,,,,,,567.976,0.746821,
,,,,,,,,,,,,,,,,,,,,,,566.965,0.74488,
,,,,,,,,,,,,,,,,,,,,,,565.992,0.742895,
,,,,,,,,,,,,,,,,,,,,,,564.98,0.743078,
,,,,,,,,,,,,,,,,,,,,,,563.968,0.744681,
,,,,,,,,,,,,,,,,,,,,,,562.956,0.746879,
,,,,,,,,,,,,,,,,,,,,,,561.982,0.743783,
,,,,,,,,,,,,,,,,,,,,,,560.969,0.745989,
,,,,,,,,,,,,,,,,,,,,,,559.956,0.745442,
,,,,,,,,,,,,,,,,,,,,,,558.981,0.747205,
,,,,,,,,,,,,,,,,,,,,,,557.968,0.745448,
,,,,,,,,,,,,,,,,,,,,,,556.954,0.74633,
,,,,,,,,,,,,,,,,,,,,,,555.978,0.747465,
,,,,,,,,,,,,,,,,,,,,,,554.964,0.749029,
,,,,,,,,,,,,,,,,,,,,,,553.988,0.747988,
,,,,,,,,,,,,,,,,,,,,,,552.973,0.744195,
,,,,,,,,,,,,,,,,,,,,,,551.959,0.745421,
,,,,,,,,,,,,,,,,,,,,,,550.982,0.746727,
,,,,,,,,,,,,,,,,,,,,,,549.966,0.748147,
,,,,,,,,,,,,,,,,,,,,,,548.989,0.748481,
,,,,,,,,,,,,,,,,,,,,,,547.973,0.744516,
,,,,,,,,,,,,,,,,,,,,,,546.957,0.743743,
,,,,,,,,,,,,,,,,,,,,,,545.979,0.744522,
,,,,,,,,,,,,,,,,,,,,,,544.962,0.746721,
,,,,,,,,,,,,,,,,,,,,,,543.984,0.746804,
,,,,,,,,,,,,,,,,,,,,,,542.967,0.750199,
,,,,,,,,,,,,,,,,,,,,,,541.987,0.744175,
,,,,,,,,,,,,,,,,,,,,,,540.97,0.741241,
,,,,,,,,,,,,,,,,,,,,,,539.99,0.743641,
,,,,,,,,,,,,,,,,,,,,,,538.973,0.746984,
,,,,,,,,,,,,,,,,,,,,,,537.955,0.74861,
,,,,,,,,,,,,,,,,,,,,,,536.974,0.745228,
,,,,,,,,,,,,,,,,,,,,,,535.956,0.742841,
,,,,,,,,,,,,,,,,,,,,,,534.975,0.75038,
,,,,,,,,,,,,,,,,,,,,,,533.956,0.749761,
,,,,,,,,,,,,,,,,,,,,,,532.975,0.744101,
,,,,,,,,,,,,,,,,,,,,,,531.956,0.747203,
,,,,,,,,,,,,,,,,,,,,,,530.974,0.751371,
,,,,,,,,,,,,,,,,,,,,,,529.954,0.753935,
,,,,,,,,,,,,,,,,,,,,,,528.972,0.7457,
,,,,,,,,,,,,,,,,,,,,,,527.989,0.743471,
,,,,,,,,,,,,,,,,,,,,,,526.969,0.748927,
,,,,,,,,,,,,,,,,,,,,,,525.986,0.745098,
,,,,,,,,,,,,,,,,,,,,,,524.965,0.748075,
,,,,,,,,,,,,,,,,,,,,,,523.982,0.749762,
,,,,,,,,,,,,,,,,,,,,,,522.96,0.751394,
,,,,,,,,,,,,,,,,,,,,,,521.977,0.754795,
,,,,,,,,,,,,,,,,,,,,,,520.955,0.753805,
,,,,,,,,,,,,,,,,,,,,,,519.971,0.757522,
,,,,,,,,,,,,,,,,,,,,,,518.986,0.754113,
,,,,,,,,,,,,,,,,,,,,,,517.964,0.752063,
,,,,,,,,,,,,,,,,,,,,,,516.979,0.752,
,,,,,,,,,,,,,,,,,,,,,,515.956,0.754715,
,,,,,,,,,,,,,,,,,,,,,,514.971,0.756243,
,,,,,,,,,,,,,,,,,,,,,,513.985,0.756216,
,,,,,,,,,,,,,,,,,,,,,,512.962,0.75703,
,,,,,,,,,,,,,,,,,,,,,,511.976,0.756982,
,,,,,,,,,,,,,,,,,,,,,,510.952,0.759102,
,,,,,,,,,,,,,,,,,,,,,,509.965,0.757012,
,,,,,,,,,,,,,,,,,,,,,,508.979,0.758492,
,,,,,,,,,,,,,,,,,,,,,,507.954,0.760539,
,,,,,,,,,,,,,,,,,,,,,,506.967,0.759998,
,,,,,,,,,,,,,,,,,,,,,,505.98,0.761993,
,,,,,,,,,,,,,,,,,,,,,,504.955,0.761732,
,,,,,,,,,,,,,,,,,,,,,,503.967,0.763439,
,,,,,,,,,,,,,,,,,,,,,,502.979,0.7636,
,,,,,,,,,,,,,,,,,,,,,,501.953,0.762933,
,,,,,,,,,,,,,,,,,,,,,,500.965,0.760748,
,,,,,,,,,,,,,,,,,,,,,,499.977,0.765602,
,,,,,,,,,,,,,,,,,,,,,,498.988,0.76303,
,,,,,,,,,,,,,,,,,,,,,,497.961,0.768079,
,,,,,,,,,,,,,,,,,,,,,,496.972,0.764102,
,,,,,,,,,,,,,,,,,,,,,,495.983,0.764528,
,,,,,,,,,,,,,,,,,,,,,,494.956,0.76804,
,,,,,,,,,,,,,,,,,,,,,,493.966,0.766768,
,,,,,,,,,,,,,,,,,,,,,,492.976,0.770959,
,,,,,,,,,,,,,,,,,,,,,,491.986,0.765404,
,,,,,,,,,,,,,,,,,,,,,,490.958,0.762788,
,,,,,,,,,,,,,,,,,,,,,,489.967,0.768527,
,,,,,,,,,,,,,,,,,,,,,,488.977,0.770976,
,,,,,,,,,,,,,,,,,,,,,,487.986,0.766709,
,,,,,,,,,,,,,,,,,,,,,,486.957,0.764788,
,,,,,,,,,,,,,,,,,,,,,,485.965,0.765912,
,,,,,,,,,,,,,,,,,,,,,,484.974,0.773763,
,,,,,,,,,,,,,,,,,,,,,,483.982,0.769743,
,,,,,,,,,,,,,,,,,,,,,,482.952,0.76091,
,,,,,,,,,,,,,,,,,,,,,,481.96,0.76346,
,,,,,,,,,,,,,,,,,,,,,,480.968,0.764841,
,,,,,,,,,,,,,,,,,,,,,,479.976,0.770407,
,,,,,,,,,,,,,,,,,,,,,,478.983,0.769894,
,,,,,,,,,,,,,,,,,,,,,,477.952,0.769292,
,,,,,,,,,,,,,,,,,,,,,,476.959,0.771491,
,,,,,,,,,,,,,,,,,,,,,,475.966,0.767411,
,,,,,,,,,,,,,,,,,,,,,,474.972,0.771224,
,,,,,,,,,,,,,,,,,,,,,,473.979,0.768711,
,,,,,,,,,,,,,,,,,,,,,,472.985,0.770006,
,,,,,,,,,,,,,,,,,,,,,,471.953,0.770001,
,,,,,,,,,,,,,,,,,,,,,,470.958,0.772614,
,,,,,,,,,,,,,,,,,,,,,,469.964,0.770773,
,,,,,,,,,,,,,,,,,,,,,,468.969,0.775233,
,,,,,,,,,,,,,,,,,,,,,,467.975,0.776375,
,,,,,,,,,,,,,,,,,,,,,,466.98,0.776208,
,,,,,,,,,,,,,,,,,,,,,,465.985,0.777258,
,,,,,,,,,,,,,,,,,,,,,,464.951,0.775216,
,,,,,,,,,,,,,,,,,,,,,,463.955,0.774332,
,,,,,,,,,,,,,,,,,,,,,,462.96,0.780036,
,,,,,,,,,,,,,,,,,,,,,,461.964,0.781673,
,,,,,,,,,,,,,,,,,,,,,,460.968,0.784243,
,,,,,,,,,,,,,,,,,,,,,,459.971,0.780273,
,,,,,,,,,,,,,,,,,,,,,,458.975,0.771286,
,,,,,,,,,,,,,,,,,,,,,,457.978,0.778638,
,,,,,,,,,,,,,,,,,,,,,,456.981,0.781558,
,,,,,,,,,,,,,,,,,,,,,,455.984,0.782526,
,,,,,,,,,,,,,,,,,,,,,,454.949,0.784299,
,,,,,,,,,,,,,,,,,,,,,,453.951,0.785861,
,,,,,,,,,,,,,,,,,,,,,,452.954,0.788037,
,,,,,,,,,,,,,,,,,,,,,,451.956,0.784689,
,,,,,,,,,,,,,,,,,,,,,,450.958,0.785369,
,,,,,,,,,,,,,,,,,,,,,,449.96,0.787588,
,,,,,,,,,,,,,,,,,,,,,,448.962,0.790568,
,,,,,,,,,,,,,,,,,,,,,,447.963,0.790574,
,,,,,,,,,,,,,,,,,,,,,,446.964,0.789932,
,,,,,,,,,,,,,,,,,,,,,,445.965,0.789579,
,,,,,,,,,,,,,,,,,,,,,,444.966,0.790149,
,,,,,,,,,,,,,,,,,,,,,,443.967,0.794046,
,,,,,,,,,,,,,,,,,,,,,,442.968,0.792663,
,,,,,,,,,,,,,,,,,,,,,,441.968,0.79772,
,,,,,,,,,,,,,,,,,,,,,,440.968,0.792242,
,,,,,,,,,,,,,,,,,,,,,,439.968,0.791356,
,,,,,,,,,,,,,,,,,,,,,,438.968,0.791825,
,,,,,,,,,,,,,,,,,,,,,,437.968,0.795269,
,,,,,,,,,,,,,,,,,,,,,,436.967,0.795933,
,,,,,,,,,,,,,,,,,,,,,,435.967,0.795327,
,,,,,,,,,,,,,,,,,,,,,,434.966,0.794577,
,,,,,,,,,,,,,,,,,,,,,,433.965,0.795527,
,,,,,,,,,,,,,,,,,,,,,,432.964,0.794081,
,,,,,,,,,,,,,,,,,,,,,,431.962,0.801049,
,,,,,,,,,,,,,,,,,,,,,,430.961,0.797947,
,,,,,,,,,,,,,,,,,,,,,,429.959,0.796817,
,,,,,,,,,,,,,,,,,,,,,,428.957,0.803665,
,,,,,,,,,,,,,,,,,,,,,,427.955,0.799259,
,,,,,,,,,,,,,,,,,,,,,,426.953,0.801039,
,,,,,,,,,,,,,,,,,,,,,,425.95,0.799156,
,,,,,,,,,,,,,,,,,,,,,,424.948,0.800365,
,,,,,,,,,,,,,,,,,,,,,,423.983,0.799187,
,,,,,,,,,,,,,,,,,,,,,,422.98,0.801097,
,,,,,,,,,,,,,,,,,,,,,,421.977,0.802764,
,,,,,,,,,,,,,,,,,,,,,,420.974,0.800389,
,,,,,,,,,,,,,,,,,,,,,,419.97,0.791904,
,,,,,,,,,,,,,,,,,,,,,,418.967,0.803102,
,,,,,,,,,,,,,,,,,,,,,,417.963,0.800806,
,,,,,,,,,,,,,,,,,,,,,,416.959,0.80183,
,,,,,,,,,,,,,,,,,,,,,,415.955,0.805569,
,,,,,,,,,,,,,,,,,,,,,,414.951,0.802053,
,,,,,,,,,,,,,,,,,,,,,,413.946,0.806255,
,,,,,,,,,,,,,,,,,,,,,,412.98,0.804154,
,,,,,,,,,,,,,,,,,,,,,,411.975,0.806757,
,,,,,,,,,,,,,,,,,,,,,,410.97,0.808444,
,,,,,,,,,,,,,,,,,,,,,,409.965,0.805799,
,,,,,,,,,,,,,,,,,,,,,,408.96,0.805492,
,,,,,,,,,,,,,,,,,,,,,,407.954,0.809192,
,,,,,,,,,,,,,,,,,,,,,,406.949,0.80981,
,,,,,,,,,,,,,,,,,,,,,,405.982,0.812344,
,,,,,,,,,,,,,,,,,,,,,,404.976,0.81122,
,,,,,,,,,,,,,,,,,,,,,,403.969,0.809871,
,,,,,,,,,,,,,,,,,,,,,,402.963,0.807703,
,,,,,,,,,,,,,,,,,,,,,,401.957,0.811926,
,,,,,,,,,,,,,,,,,,,,,,400.95,0.81478,
,,,,,,,,,,,,,,,,,,,,,,399.982,0.812866,
,,,,,,,,,,,,,,,,,,,,,,398.975,0.817806,
,,,,,,,,,,,,,,,,,,,,,,397.968,0.816449,
,,,,,,,,,,,,,,,,,,,,,,396.961,0.81739,
,,,,,,,,,,,,,,,,,,,,,,395.953,0.820875,
,,,,,,,,,,,,,,,,,,,,,,394.946,0.819984,
,,,,,,,,,,,,,,,,,,,,,,393.977,0.815412,
,,,,,,,,,,,,,,,,,,,,,,392.969,0.82002,
,,,,,,,,,,,,,,,,,,,,,,391.961,0.821818,
,,,,,,,,,,,,,,,,,,,,,,390.952,0.81294,
,,,,,,,,,,,,,,,,,,,,,,389.944,0.821804,
,,,,,,,,,,,,,,,,,,,,,,388.974,0.819673,
,,,,,,,,,,,,,,,,,,,,,,387.965,0.826965,
,,,,,,,,,,,,,,,,,,,,,,386.957,0.821268,
,,,,,,,,,,,,,,,,,,,,,,385.948,0.825866,
,,,,,,,,,,,,,,,,,,,,,,384.977,0.829233,
,,,,,,,,,,,,,,,,,,,,,,383.968,0.82804,
,,,,,,,,,,,,,,,,,,,,,,382.958,0.828564,
,,,,,,,,,,,,,,,,,,,,,,381.949,0.831502,
,,,,,,,,,,,,,,,,,,,,,,380.978,0.835423,
,,,,,,,,,,,,,,,,,,,,,,379.968,0.833842,
,,,,,,,,,,,,,,,,,,,,,,378.958,0.83473,
,,,,,,,,,,,,,,,,,,,,,,377.947,0.835415,
,,,,,,,,,,,,,,,,,,,,,,376.976,0.829871,
,,,,,,,,,,,,,,,,,,,,,,375.965,0.836321,
,,,,,,,,,,,,,,,,,,,,,,374.955,0.836486,
,,,,,,,,,,,,,,,,,,,,,,373.944,0.838033,
,,,,,,,,,,,,,,,,,,,,,,372.972,0.839188,
,,,,,,,,,,,,,,,,,,,,,,371.96,0.84287,
,,,,,,,,,,,,,,,,,,,,,,370.949,0.840631,
,,,,,,,,,,,,,,,,,,,,,,369.977,0.843744,
,,,,,,,,,,,,,,,,,,,,,,368.965,0.845907,
,,,,,,,,,,,,,,,,,,,,,,367.953,0.848776,
,,,,,,,,,,,,,,,,,,,,,,366.98,0.851166,
,,,,,,,,,,,,,,,,,,,,,,365.968,0.85394,
,,,,,,,,,,,,,,,,,,,,,,364.956,0.85271,
,,,,,,,,,,,,,,,,,,,,,,363.944,0.85522,
,,,,,,,,,,,,,,,,,,,,,,362.97,0.866885,
,,,,,,,,,,,,,,,,,,,,,,361.957,0.851573,
,,,,,,,,,,,,,,,,,,,,,,360.945,0.856702,
,,,,,,,,,,,,,,,,,,,,,,359.971,0.850405,
,,,,,,,,,,,,,,,,,,,,,,358.958,0.863163,
,,,,,,,,,,,,,,,,,,,,,,357.944,0.862098,
,,,,,,,,,,,,,,,,,,,,,,356.97,0.86364,
,,,,,,,,,,,,,,,,,,,,,,355.956,0.868176,
,,,,,,,,,,,,,,,,,,,,,,354.943,0.865507,
,,,,,,,,,,,,,,,,,,,,,,353.968,0.871121,
,,,,,,,,,,,,,,,,,,,,,,352.954,0.872101,
,,,,,,,,,,,,,,,,,,,,,,351.979,0.873804,
,,,,,,,,,,,,,,,,,,,,,,350.965,0.877282,
,,,,,,,,,,,,,,,,,,,,,,349.95,0.875842,
,,,,,,,,,,,,,,,,,,,,,,348.975,0.875772,
,,,,,,,,,,,,,,,,,,,,,,347.96,0.881141,
,,,,,,,,,,,,,,,,,,,,,,346.945,0.884897,
,,,,,,,,,,,,,,,,,,,,,,345.97,0.885108,
,,,,,,,,,,,,,,,,,,,,,,344.955,0.885819,
,,,,,,,,,,,,,,,,,,,,,,343.978,0.884047,
,,,,,,,,,,,,,,,,,,,,,,342.963,0.886506,
,,,,,,,,,,,,,,,,,,,,,,341.948,0.888385,
,,,,,,,,,,,,,,,,,,,,,,340.971,0.891139,
,,,,,,,,,,,,,,,,,,,,,,339.955,0.891387,
,,,,,,,,,,,,,,,,,,,,,,338.978,0.894336,
,,,,,,,,,,,,,,,,,,,,,,337.962,0.895821,
,,,,,,,,,,,,,,,,,,,,,,336.946,0.897085,
,,,,,,,,,,,,,,,,,,,,,,335.969,0.899706,
,,,,,,,,,,,,,,,,,,,,,,334.953,0.903998,
,,,,,,,,,,,,,,,,,,,,,,333.975,0.902644,
,,,,,,,,,,,,,,,,,,,,,,332.958,0.901205,
,,,,,,,,,,,,,,,,,,,,,,331.942,0.903575,
,,,,,,,,,,,,,,,,,,,,,,330.964,0.909875,
,,,,,,,,,,,,,,,,,,,,,,329.947,0.909656,
,,,,,,,,,,,,,,,,,,,,,,328.969,0.90949,
,,,,,,,,,,,,,,,,,,,,,,327.951,0.915569,
,,,,,,,,,,,,,,,,,,,,,,326.973,0.913171,
,,,,,,,,,,,,,,,,,,,,,,325.955,0.915669,
,,,,,,,,,,,,,,,,,,,,,,324.977,0.923302,
,,,,,,,,,,,,,,,,,,,,,,323.959,0.913466,
,,,,,,,,,,,,,,,,,,,,,,322.941,0.916362,
,,,,,,,,,,,,,,,,,,,,,,321.962,0.92187,
,,,,,,,,,,,,,,,,,,,,,,320.944,0.925688,
,,,,,,,,,,,,,,,,,,,,,,319.964,0.932496,
,,,,,,,,,,,,,,,,,,,,,,318.946,0.92783,
,,,,,,,,,,,,,,,,,,,,,,317.966,0.930234,
,,,,,,,,,,,,,,,,,,,,,,316.948,0.936457,
,,,,,,,,,,,,,,,,,,,,,,315.968,0.946155,
,,,,,,,,,,,,,,,,,,,,,,314.949,0.932119,
,,,,,,,,,,,,,,,,,,,,,,313.969,0.942112,
,,,,,,,,,,,,,,,,,,,,,,312.95,0.947997,
,,,,,,,,,,,,,,,,,,,,,,311.969,0.949885,
,,,,,,,,,,,,,,,,,,,,,,310.95,0.950261,
,,,,,,,,,,,,,,,,,,,,,,309.969,0.95717,
,,,,,,,,,,,,,,,,,,,,,,308.95,0.953482,
,,,,,,,,,,,,,,,,,,,,,,307.969,0.957651,
,,,,,,,,,,,,,,,,,,,,,,306.949,0.964345,
,,,,,,,,,,,,,,,,,,,,,,305.968,0.966787,
,,,,,,,,,,,,,,,,,,,,,,304.948,0.975205,
,,,,,,,,,,,,,,,,,,,,,,303.967,0.984045,
,,,,,,,,,,,,,,,,,,,,,,302.946,0.993475,
,,,,,,,,,,,,,,,,,,,,,,301.965,1.00245,
,,,,,,,,,,,,,,,,,,,,,,300.944,1.02231,
,,,,,,,,,,,,,,,,,,,,,,299.962,1.03063,
,,,,,,,,,,,,,,,,,,,,,,298.941,1.04641,
,,,,,,,,,,,,,,,,,,,,,,297.959,1.06291,
,,,,,,,,,,,,,,,,,,,,,,296.938,1.07011,
,,,,,,,,,,,,,,,,,,,,,,295.956,1.1037,
,,,,,,,,,,,,,,,,,,,,,,294.974,1.13252,
,,,,,,,,,,,,,,,,,,,,,,293.952,1.16287,
,,,,,,,,,,,,,,,,,,,,,,292.97,1.21186,
,,,,,,,,,,,,,,,,,,,,,,291.948,1.2467,
,,,,,,,,,,,,,,,,,,,,,,290.965,1.25845,
,,,,,,,,,,,,,,,,,,,,,,289.943,1.26814,
,,,,,,,,,,,,,,,,,,,,,,288.961,1.27384,
,,,,,,,,,,,,,,,,,,,,,,287.938,1.28703,
,,,,,,,,,,,,,,,,,,,,,,286.955,1.29698,
,,,,,,,,,,,,,,,,,,,,,,285.972,1.3272,
,,,,,,,,,,,,,,,,,,,,,,284.949,1.34104,
,,,,,,,,,,,,,,,,,,,,,,283.966,1.36279,
,,,,,,,,,,,,,,,,,,,,,,282.943,1.37381,
,,,,,,,,,,,,,,,,,,,,,,281.96,1.37498,
,,,,,,,,,,,,,,,,,,,,,,280.936,1.3793,
,,,,,,,,,,,,,,,,,,,,,,279.953,1.38491,
,,,,,,,,,,,,,,,,,,,,,,278.969,1.38955,
,,,,,,,,,,,,,,,,,,,,,,277.945,1.39049,
,,,,,,,,,,,,,,,,,,,,,,276.961,1.39253,
,,,,,,,,,,,,,,,,,,,,,,275.937,1.39854,
,,,,,,,,,,,,,,,,,,,,,,274.953,1.4027,
,,,,,,,,,,,,,,,,,,,,,,273.969,1.39956,
,,,,,,,,,,,,,,,,,,,,,,272.945,1.40946,
,,,,,,,,,,,,,,,,,,,,,,271.96,1.38182,
,,,,,,,,,,,,,,,,,,,,,,270.975,1.39507,
,,,,,,,,,,,,,,,,,,,,,,269.951,1.39433,
,,,,,,,,,,,,,,,,,,,,,,268.966,1.3899,
,,,,,,,,,,,,,,,,,,,,,,267.941,1.38788,
,,,,,,,,,,,,,,,,,,,,,,266.956,1.37613,
,,,,,,,,,,,,,,,,,,,,,,265.971,1.37503,
,,,,,,,,,,,,,,,,,,,,,,264.946,1.3775,
,,,,,,,,,,,,,,,,,,,,,,263.961,1.38033,
,,,,,,,,,,,,,,,,,,,,,,262.935,1.37375,
,,,,,,,,,,,,,,,,,,,,,,261.95,1.37982,
,,,,,,,,,,,,,,,,,,,,,,260.964,1.36629,
,,,,,,,,,,,,,,,,,,,,,,259.939,1.36266,
,,,,,,,,,,,,,,,,,,,,,,258.953,1.36981,
,,,,,,,,,,,,,,,,,,,,,,257.966,1.36026,
,,,,,,,,,,,,,,,,,,,,,,256.941,1.37376,
,,,,,,,,,,,,,,,,,,,,,,255.955,1.38053,
,,,,,,,,,,,,,,,,,,,,,,254.968,1.38911,
,,,,,,,,,,,,,,,,,,,,,,253.942,1.39662,
,,,,,,,,,,,,,,,,,,,,,,252.956,1.38963,
,,,,,,,,,,,,,,,,,,,,,,251.969,1.40359,
,,,,,,,,,,,,,,,,,,,,,,250.943,1.41884,
,,,,,,,,,,,,,,,,,,,,,,249.956,1.43229,
,,,,,,,,,,,,,,,,,,,,,,248.969,1.44181,
,,,,,,,,,,,,,,,,,,,,,,247.942,1.43429,
,,,,,,,,,,,,,,,,,,,,,,246.955,1.45447,
,,,,,,,,,,,,,,,,,,,,,,245.968,1.48547,
,,,,,,,,,,,,,,,,,,,,,,244.941,1.52063,
,,,,,,,,,,,,,,,,,,,,,,243.953,1.54486,
,,,,,,,,,,,,,,,,,,,,,,242.966,1.56225,
,,,,,,,,,,,,,,,,,,,,,,241.939,1.6028,
,,,,,,,,,,,,,,,,,,,,,,240.951,1.64947,
,,,,,,,,,,,,,,,,,,,,,,239.963,1.70041,
,,,,,,,,,,,,,,,,,,,,,,238.936,1.75682,
,,,,,,,,,,,,,,,,,,,,,,237.948,1.83886,
,,,,,,,,,,,,,,,,,,,,,,236.96,1.90333,
,,,,,,,,,,,,,,,,,,,,,,235.972,1.99932,
,,,,,,,,,,,,,,,,,,,,,,234.944,2.08521,
,,,,,,,,,,,,,,,,,,,,,,233.955,2.21333,
,,,,,,,,,,,,,,,,,,,,,,232.967,2.37902,
,,,,,,,,,,,,,,,,,,,,,,231.939,2.50792,
,,,,,,,,,,,,,,,,,,,,,,230.95,2.69364,
,,,,,,,,,,,,,,,,,,,,,,229.962,2.76633,
,,,,,,,,,,,,,,,,,,,,,,228.973,2.90023,
,,,,,,,,,,,,,,,,,,,,,,227.944,3.05584,
,,,,,,,,,,,,,,,,,,,,,,226.955,3.16089,
,,,,,,,,,,,,,,,,,,,,,,225.966,3.29365,
,,,,,,,,,,,,,,,,,,,,,,224.938,3.33488,
,,,,,,,,,,,,,,,,,,,,,,223.948,3.38189,
,,,,,,,,,,,,,,,,,,,,,,222.959,3.45778,
,,,,,,,,,,,,,,,,,,,,,,221.97,3.48548,
,,,,,,,,,,,,,,,,,,,,,,220.94,3.53598,
,,,,,,,,,,,,,,,,,,,,,,219.951,3.43318,
,,,,,,,,,,,,,,,,,,,,,,218.961,3.50959,
,,,,,,,,,,,,,,,,,,,,,,217.971,3.5141,
,,,,,,,,,,,,,,,,,,,,,,216.942,3.46179,
,,,,,,,,,,,,,,,,,,,,,,215.952,3.54093,
[...]
End Method Modifications
<Current Wavelength> , 226.0

sample3,
sample3
Collection Time: 5/15/2020 11:58:54 AM
Operator Name  :
Scan Version 5.1.0.1016
Parameter List :
Instrument  Cary 60
Instrument Version  2.00
Start (nm)  600.0
Stop (nm)  190.0
X Mode  Nanometers
Y Mode  Abs
UV-Vis Scan Rate (nm/min)  24000.00
UV-Vis Data Interval (nm)  5.00
UV-Vis Ave. Time (sec)  0.0125
Beam Mode  Dual Beam
Baseline Correction  Off
Cycle Mode  Off
Method Log     :
Method Name    :
Date/Time stamp: 5/15/2020 11:53:41 AM
Method Modifications:
UVVIS SAT Changed: 5/15/2020 11:54:02 AM, Old:0.0125, New:0.1000
Common SAT Changed: 5/15/2020 11:54:02 AM, Old:0.0125, New:0.1000
Y Max Abs Changed: 5/15/2020 11:54:09 AM, Old:     1.00, New:     2.00
Common Interval nm Changed: 5/15/2020 11:54:09 AM, Old:     5.00, New:     0.50
UVVIS SAT Changed: 5/15/2020 11:57:52 AM, Old:0.1000, New:0.0125
Common SAT Changed: 5/15/2020 11:57:52 AM, Old:0.1000, New:0.0125
X Start nm Changed: 5/15/2020 11:57:56 AM, Old:  800.0, New:  500.0
Common Interval nm Changed: 5/15/2020 11:57:56 AM, Old:     0.50, New:     2.00
X Start nm Changed: 5/15/2020 11:58:47 AM, Old:  500.0, New:  600.0
X Stop nm Changed: 5/15/2020 11:58:47 AM, Old:  200.0, New:  190.0
Common Interval nm Changed: 5/15/2020 11:58:47 AM, Old:     2.00, New:     5.00
End Method Modifications
<Current Wavelength> , 234.4

sample4,
sample4
Collection Time: 5/15/2020 12:06:29 PM
Operator Name  :
Scan Version 5.1.0.1016
Parameter List :
Instrument  Cary 60
Instrument Version  2.00
Start (nm)  600.0
Stop (nm)  190.0
X Mode  Nanometers
Y Mode  Abs
UV-Vis Scan Rate (nm/min)  24000.00
UV-Vis Data Interval (nm)  5.00
UV-Vis Ave. Time (sec)  0.0125
Beam Mode  Dual Beam
Baseline Correction  Off
Cycle Mode  Off
Method Log     :
Method Name    :
Date/Time stamp: 5/15/2020 11:53:41 AM
Method Modifications:
UVVIS SAT Changed: 5/15/2020 11:54:02 AM, Old:0.0125, New:0.1000
Common SAT Changed: 5/15/2020 11:54:02 AM, Old:0.0125, New:0.1000
Y Max Abs Changed: 5/15/2020 11:54:09 AM, Old:     1.00, New:     2.00
Common Interval nm Changed: 5/15/2020 11:54:09 AM, Old:     5.00, New:     0.50
UVVIS SAT Changed: 5/15/2020 11:57:52 AM, Old:0.1000, New:0.0125
Common SAT Changed: 5/15/2020 11:57:52 AM, Old:0.1000, New:0.0125
X Start nm Changed: 5/15/2020 11:57:56 AM, Old:  800.0, New:  500.0
Common Interval nm Changed: 5/15/2020 11:57:56 AM, Old:     0.50, New:     2.00
X Start nm Changed: 5/15/2020 11:58:47 AM, Old:  500.0, New:  600.0
X Stop nm Changed: 5/15/2020 11:58:47 AM, Old:  200.0, New:  190.0
Common Interval nm Changed: 5/15/2020 11:58:47 AM, Old:     2.00, New:     5.00
End Method Modifications
<Current Wavelength> , 265.0

sample5,
sample5
Collection Time: 5/15/2020 12:06:51 PM
Operator Name  :
Scan Version 5.1.0.1016
Parameter List :
Instrument  Cary 60
Instrument Version  2.00
Start (nm)  600.0
Stop (nm)  300.0
X Mode  Nanometers
Y Mode  Abs
UV-Vis Scan Rate (nm/min)  600.00
UV-Vis Data Interval (nm)  1.00
UV-Vis Ave. Time (sec)  0.1000
Beam Mode  Dual Beam
Baseline Correction  Off
Cycle Mode  Off
Method Log     :
Method Name    :
Date/Time stamp: 5/15/2020 11:53:41 AM
Method Modifications:
UVVIS SAT Changed: 5/15/2020 11:54:02 AM, Old:0.0125, New:0.1000
Common SAT Changed: 5/15/2020 11:54:02 AM, Old:0.0125, New:0.1000
Y Max Abs Changed: 5/15/2020 11:54:09 AM, Old:     1.00, New:     2.00
Common Interval nm Changed: 5/15/2020 11:54:09 AM, Old:     5.00, New:     0.50
UVVIS SAT Changed: 5/15/2020 11:57:52 AM, Old:0.1000, New:0.0125
Common SAT Changed: 5/15/2020 11:57:52 AM, Old:0.1000, New:0.0125
X Start nm Changed: 5/15/2020 11:57:56 AM, Old:  800.0, New:  500.0
Common Interval nm Changed: 5/15/2020 11:57:56 AM, Old:     0.50, New:     2.00
X Start nm Changed: 5/15/2020 11:58:47 AM, Old:  500.0, New:  600.0
X Stop nm Changed: 5/15/2020 11:58:47 AM, Old:  200.0, New:  190.0
Common Interval nm Changed: 5/15/2020 11:58:47 AM, Old:     2.00, New:     5.00
UVVIS SAT Changed: 5/15/2020 12:06:39 PM, Old:0.0125, New:0.1000
Common SAT Changed: 5/15/2020 12:06:39 PM, Old:0.0125, New:0.1000
X Stop nm Changed: 5/15/2020 12:06:45 PM, Old:  190.0, New:  300.0
Common Interval nm Changed: 5/15/2020 12:06:45 PM, Old:     5.00, New:     1.00
End Method Modifications
<Current Wavelength> , 300.0

sample6,
sample6
Collection Time: 5/15/2020 12:08:03 PM
Operator Name  :
Scan Version 5.1.0.1016
Parameter List :
Instrument  Cary 60
Instrument Version  2.00
Start (nm)  1000.0
Stop (nm)  190.0
X Mode  Nanometers
Y Mode  Abs
UV-Vis Scan Rate (nm/min)  24000.00
UV-Vis Data Interval (nm)  5.00
UV-Vis Ave. Time (sec)  0.0125
Beam Mode  Dual Beam
Baseline Correction  Off
Cycle Mode  Off
Method Log     :
Method Name    :
Date/Time stamp: 5/15/2020 11:53:41 AM
Method Modifications:
UVVIS SAT Changed: 5/15/2020 11:54:02 AM, Old:0.0125, New:0.1000
Common SAT Changed: 5/15/2020 11:54:02 AM, Old:0.0125, New:0.1000
Y Max Abs Changed: 5/15/2020 11:54:09 AM, Old:     1.00, New:     2.00
Common Interval nm Changed: 5/15/2020 11:54:09 AM, Old:     5.00, New:     0.50
UVVIS SAT Changed: 5/15/2020 11:57:52 AM, Old:0.1000, New:0.0125
Common SAT Changed: 5/15/2020 11:57:52 AM, Old:0.1000, New:0.0125
X Start nm Changed: 5/15/2020 11:57:56 AM, Old:  800.0, New:  500.0
Common Interval nm Changed: 5/15/2020 11:57:56 AM, Old:     0.50, New:     2.00
X Start nm Changed: 5/15/2020 11:58:47 AM, Old:  500.0, New:  600.0
X Stop nm Changed: 5/15/2020 11:58:47 AM, Old:  200.0, New:  190.0
Common Interval nm Changed: 5/15/2020 11:58:47 AM, Old:     2.00, New:     5.00
UVVIS SAT Changed: 5/15/2020 12:06:39 PM, Old:0.0125, New:0.1000
Common SAT Changed: 5/15/2020 12:06:39 PM, Old:0.0125, New:0.1000
X Stop nm Changed: 5/15/2020 12:06:45 PM, Old:  190.0, New:  300.0
Common Interval nm Changed: 5/15/2020 12:06:45 PM, Old:     5.00, New:     1.00
UVVIS SAT Changed: 5/15/2020 12:07:49 PM, Old:0.1000, New:0.0125
Common SAT Changed: 5/15/2020 12:07:49 PM, Old:0.1000, New:0.0125
X Start nm Changed: 5/15/2020 12:07:53 PM, Old:  600.0, New: 1000.0
X Stop nm Changed: 5/15/2020 12:07:53 PM, Old:  300.0, New:  190.0
Common Interval nm Changed: 5/15/2020 12:07:53 PM, Old:     1.00, New:     5.00
End Method Modifications
<Current Wavelength> , 225.0

vzorek1,
vzorek1
Collection Time: 5/15/2020 12:19:56 PM
Operator Name  :
Scan Version 5.1.0.1016
Parameter List :
Instrument  Cary 60
Instrument Version  2.00
Start (nm)  1000.0
Stop (nm)  190.0
X Mode  Nanometers
Y Mode  Abs
UV-Vis Scan Rate (nm/min)  24000.00
UV-Vis Data Interval (nm)  5.00
UV-Vis Ave. Time (sec)  0.0125
Beam Mode  Dual Beam
Baseline Correction  Off
Cycle Mode  Off
Method Log     :
Method Name    :
Date/Time stamp: 5/15/2020 11:53:41 AM
Method Modifications:
UVVIS SAT Changed: 5/15/2020 11:54:02 AM, Old:0.0125, New:0.1000
Common SAT Changed: 5/15/2020 11:54:02 AM, Old:0.0125, New:0.1000
Y Max Abs Changed: 5/15/2020 11:54:09 AM, Old:     1.00, New:     2.00
Common Interval nm Changed: 5/15/2020 11:54:09 AM, Old:     5.00, New:     0.50
UVVIS SAT Changed: 5/15/2020 11:57:52 AM, Old:0.1000, New:0.0125
Common SAT Changed: 5/15/2020 11:57:52 AM, Old:0.1000, New:0.0125
X Start nm Changed: 5/15/2020 11:57:56 AM, Old:  800.0, New:  500.0
Common Interval nm Changed: 5/15/2020 11:57:56 AM, Old:     0.50, New:     2.00
X Start nm Changed: 5/15/2020 11:58:47 AM, Old:  500.0, New:  600.0
X Stop nm Changed: 5/15/2020 11:58:47 AM, Old:  200.0, New:  190.0
Common Interval nm Changed: 5/15/2020 11:58:47 AM, Old:     2.00, New:     5.00
UVVIS SAT Changed: 5/15/2020 12:06:39 PM, Old:0.0125, New:0.1000
Common SAT Changed: 5/15/2020 12:06:39 PM, Old:0.0125, New:0.1000
X Stop nm Changed: 5/15/2020 12:06:45 PM, Old:  190.0, New:  300.0
Common Interval nm Changed: 5/15/2020 12:06:45 PM, Old:     5.00, New:     1.00
UVVIS SAT Changed: 5/15/2020 12:07:49 PM, Old:0.1000, New:0.0125
Common SAT Changed: 5/15/2020 12:07:49 PM, Old:0.1000, New:0.0125
X Start nm Changed: 5/15/2020 12:07:53 PM, Old:  600.0, New: 1000.0
X Stop nm Changed: 5/15/2020 12:07:53 PM, Old:  300.0, New:  190.0
Common Interval nm Changed: 5/15/2020 12:07:53 PM, Old:     1.00, New:     5.00
End Method Modifications
<Current Wavelength> , 235.0

vzorek2,
vzorek2
Collection Time: 5/15/2020 12:20:26 PM
Operator Name  :
Scan Version 5.1.0.1016
Parameter List :
Instrument  Cary 60
Instrument Version  2.00
Start (nm)  500.0
Stop (nm)  190.0
X Mode  Nanometers
Y Mode  Abs
UV-Vis Scan Rate (nm/min)  24000.00
UV-Vis Data Interval (nm)  5.00
UV-Vis Ave. Time (sec)  0.0125
Beam Mode  Dual Beam
Baseline Correction  Off
Cycle Mode  Off
Method Log     :
Method Name    :
Date/Time stamp: 5/15/2020 11:53:41 AM
Method Modifications:
UVVIS SAT Changed: 5/15/2020 11:54:02 AM, Old:0.0125, New:0.1000
Common SAT Changed: 5/15/2020 11:54:02 AM, Old:0.0125, New:0.1000
Y Max Abs Changed: 5/15/2020 11:54:09 AM, Old:     1.00, New:     2.00
Common Interval nm Changed: 5/15/2020 11:54:09 AM, Old:     5.00, New:     0.50
UVVIS SAT Changed: 5/15/2020 11:57:52 AM, Old:0.1000, New:0.0125
Common SAT Changed: 5/15/2020 11:57:52 AM, Old:0.1000, New:0.0125
X Start nm Changed: 5/15/2020 11:57:56 AM, Old:  800.0, New:  500.0
Common Interval nm Changed: 5/15/2020 11:57:56 AM, Old:     0.50, New:     2.00
X Start nm Changed: 5/15/2020 11:58:47 AM, Old:  500.0, New:  600.0
X Stop nm Changed: 5/15/2020 11:58:47 AM, Old:  200.0, New:  190.0
Common Interval nm Changed: 5/15/2020 11:58:47 AM, Old:     2.00, New:     5.00
UVVIS SAT Changed: 5/15/2020 12:06:39 PM, Old:0.0125, New:0.1000
Common SAT Changed: 5/15/2020 12:06:39 PM, Old:0.0125, New:0.1000
X Stop nm Changed: 5/15/2020 12:06:45 PM, Old:  190.0, New:  300.0
Common Interval nm Changed: 5/15/2020 12:06:45 PM, Old:     5.00, New:     1.00
UVVIS SAT Changed: 5/15/2020 12:07:49 PM, Old:0.1000, New:0.0125
Common SAT Changed: 5/15/2020 12:07:49 PM, Old:0.1000, New:0.0125
X Start nm Changed: 5/15/2020 12:07:53 PM, Old:  600.0, New: 1000.0
X Stop nm Changed: 5/15/2020 12:07:53 PM, Old:  300.0, New:  190.0
Common Interval nm Changed: 5/15/2020 12:07:53 PM, Old:     1.00, New:     5.00
X Start nm Changed: 5/15/2020 12:20:16 PM, Old: 1000.0, New:  500.0
End Method Modifications
<Current Wavelength> , 190.0

vzorek3,
vzorek3
Collection Time: 5/15/2020 12:20:41 PM
Operator Name  :
Scan Version 5.1.0.1016
Parameter List :
Instrument  Cary 60
Instrument Version  2.00
Start (nm)  500.0
Stop (nm)  190.0
X Mode  Nanometers
Y Mode  Abs
UV-Vis Scan Rate (nm/min)  600.00
UV-Vis Data Interval (nm)  1.00
UV-Vis Ave. Time (sec)  0.1000
Beam Mode  Dual Beam
Baseline Correction  Off
Cycle Mode  Off
Method Log     :
Method Name    :
Date/Time stamp: 5/15/2020 11:53:41 AM
Method Modifications:
UVVIS SAT Changed: 5/15/2020 11:54:02 AM, Old:0.0125, New:0.1000
Common SAT Changed: 5/15/2020 11:54:02 AM, Old:0.0125, New:0.1000
Y Max Abs Changed: 5/15/2020 11:54:09 AM, Old:     1.00, New:     2.00
Common Interval nm Changed: 5/15/2020 11:54:09 AM, Old:     5.00, New:     0.50
UVVIS SAT Changed: 5/15/2020 11:57:52 AM, Old:0.1000, New:0.0125
Common SAT Changed: 5/15/2020 11:57:52 AM, Old:0.1000, New:0.0125
X Start nm Changed: 5/15/2020 11:57:56 AM, Old:  800.0, New:  500.0
Common Interval nm Changed: 5/15/2020 11:57:56 AM, Old:     0.50, New:     2.00
X Start nm Changed: 5/15/2020 11:58:47 AM, Old:  500.0, New:  600.0
X Stop nm Changed: 5/15/2020 11:58:47 AM, Old:  200.0, New:  190.0
Common Interval nm Changed: 5/15/2020 11:58:47 AM, Old:     2.00, New:     5.00
UVVIS SAT Changed: 5/15/2020 12:06:39 PM, Old:0.0125, New:0.1000
Common SAT Changed: 5/15/2020 12:06:39 PM, Old:0.0125, New:0.1000
X Stop nm Changed: 5/15/2020 12:06:45 PM, Old:  190.0, New:  300.0
Common Interval nm Changed: 5/15/2020 12:06:45 PM, Old:     5.00, New:     1.00
UVVIS SAT Changed: 5/15/2020 12:07:49 PM, Old:0.1000, New:0.0125
Common SAT Changed: 5/15/2020 12:07:49 PM, Old:0.1000, New:0.0125
X Start nm Changed: 5/15/2020 12:07:53 PM, Old:  600.0, New: 1000.0
X Stop nm Changed: 5/15/2020 12:07:53 PM, Old:  300.0, New:  190.0
Common Interval nm Changed: 5/15/2020 12:07:53 PM, Old:     1.00, New:     5.00
X Start nm Changed: 5/15/2020 12:20:16 PM, Old: 1000.0, New:  500.0
UVVIS SAT Changed: 5/15/2020 12:20:34 PM, Old:0.0125, New:0.1000
Common SAT Changed: 5/15/2020 12:20:34 PM, Old:0.0125, New:0.1000
Common Interval nm Changed: 5/15/2020 12:20:36 PM, Old:     5.00, New:     1.00
End Method Modifications
<Current Wavelength> , 192.0

specimen0,
specimen0
Collection Time: 5/15/2020 12:29:14 PM
Operator Name  :
Scan Version 5.1.0.1016
Parameter List :
Instrument  Cary 60
Instrument Version  2.00
Start (nm)  500.0
Stop (nm)  190.0
X Mode  Nanometers
Y Mode  Abs
UV-Vis Scan Rate (nm/min)  600.00
UV-Vis Data Interval (nm)  1.00
UV-Vis Ave. Time (sec)  0.1000
Beam Mode  Dual Beam
Baseline Correction  Off
Cycle Mode  Off
Method Log     :
Method Name    :
Date/Time stamp: 5/15/2020 11:53:41 AM
Method Modifications:
UVVIS SAT Changed: 5/15/2020 11:54:02 AM, Old:0.0125, New:0.1000
Common SAT Changed: 5/15/2020 11:54:02 AM, Old:0.0125, New:0.1000
Y Max Abs Changed: 5/15/2020 11:54:09 AM, Old:     1.00, New:     2.00
Common Interval nm Changed: 5/15/2020 11:54:09 AM, Old:     5.00, New:     0.50
UVVIS SAT Changed: 5/15/2020 11:57:52 AM, Old:0.1000, New:0.0125
Common SAT Changed: 5/15/2020 11:57:52 AM, Old:0.1000, New:0.0125
X Start nm Changed: 5/15/2020 11:57:56 AM, Old:  800.0, New:  500.0
Common Interval nm Changed: 5/15/2020 11:57:56 AM, Old:     0.50, New:     2.00
X Start nm Changed: 5/15/2020 11:58:47 AM, Old:  500.0, New:  600.0
X Stop nm Changed: 5/15/2020 11:58:47 AM, Old:  200.0, New:  190.0
Common Interval nm Changed: 5/15/2020 11:58:47 AM, Old:     2.00, New:     5.00
UVVIS SAT Changed: 5/15/2020 12:06:39 PM, Old:0.0125, New:0.1000
Common SAT Changed: 5/15/2020 12:06:39 PM, Old:0.0125, New:0.1000
X Stop nm Changed: 5/15/2020 12:06:45 PM, Old:  190.0, New:  300.0
Common Interval nm Changed: 5/15/2020 12:06:45 PM, Old:     5.00, New:     1.00
UVVIS SAT Changed: 5/15/2020 12:07:49 PM, Old:0.1000, New:0.0125
Common SAT Changed: 5/15/2020 12:07:49 PM, Old:0.1000, New:0.0125
X Start nm Changed: 5/15/2020 12:07:53 PM, Old:  600.0, New: 1000.0
X Stop nm Changed: 5/15/2020 12:07:53 PM, Old:  300.0, New:  190.0
Common Interval nm Changed: 5/15/2020 12:07:53 PM, Old:     1.00, New:     5.00
X Start nm Changed: 5/15/2020 12:20:16 PM, Old: 1000.0, New:  500.0
UVVIS SAT Changed: 5/15/2020 12:20:34 PM, Old:0.0125, New:0.1000
Common SAT Changed: 5/15/2020 12:20:34 PM, Old:0.0125, New:0.1000
Common Interval nm Changed: 5/15/2020 12:20:36 PM, Old:     5.00, New:     1.00
End Method Modifications
<Current Wavelength> , 190.0

specimen1,
specimen1
Collection Time: 5/15/2020 12:30:00 PM
Operator Name  :
Scan Version 5.1.0.1016
Parameter List :
Instrument  Cary 60
Instrument Version  2.00
Start (nm)  500.0
Stop (nm)  190.0
X Mode  Nanometers
Y Mode  Abs
UV-Vis Scan Rate (nm/min)  24000.00
UV-Vis Data Interval (nm)  5.00
UV-Vis Ave. Time (sec)  0.0125
Beam Mode  Dual Beam
Baseline Correction  Off
Cycle Mode  Off
Method Log     :
Method Name    :
Date/Time stamp: 5/15/2020 11:53:41 AM
Method Modifications:
UVVIS SAT Changed: 5/15/2020 11:54:02 AM, Old:0.0125, New:0.1000
Common SAT Changed: 5/15/2020 11:54:02 AM, Old:0.0125, New:0.1000
Y Max Abs Changed: 5/15/2020 11:54:09 AM, Old:     1.00, New:     2.00
Common Interval nm Changed: 5/15/2020 11:54:09 AM, Old:     5.00, New:     0.50
UVVIS SAT Changed: 5/15/2020 11:57:52 AM, Old:0.1000, New:0.0125
Common SAT Changed: 5/15/2020 11:57:52 AM, Old:0.1000, New:0.0125
X Start nm Changed: 5/15/2020 11:57:56 AM, Old:  800.0, New:  500.0
Common Interval nm Changed: 5/15/2020 11:57:56 AM, Old:     0.50, New:     2.00
X Start nm Changed: 5/15/2020 11:58:47 AM, Old:  500.0, New:  600.0
X Stop nm Changed: 5/15/2020 11:58:47 AM, Old:  200.0, New:  190.0
Common Interval nm Changed: 5/15/2020 11:58:47 AM, Old:     2.00, New:     5.00
UVVIS SAT Changed: 5/15/2020 12:06:39 PM, Old:0.0125, New:0.1000
Common SAT Changed: 5/15/2020 12:06:39 PM, Old:0.0125, New:0.1000
X Stop nm Changed: 5/15/2020 12:06:45 PM, Old:  190.0, New:  300.0
Common Interval nm Changed: 5/15/2020 12:06:45 PM, Old:     5.00, New:     1.00
UVVIS SAT Changed: 5/15/2020 12:07:49 PM, Old:0.1000, New:0.0125
Common SAT Changed: 5/15/2020 12:07:49 PM, Old:0.1000, New:0.0125
X Start nm Changed: 5/15/2020 12:07:53 PM, Old:  600.0, New: 1000.0
X Stop nm Changed: 5/15/2020 12:07:53 PM, Old:  300.0, New:  190.0
Common Interval nm Changed: 5/15/2020 12:07:53 PM, Old:     1.00, New:     5.00
X Start nm Changed: 5/15/2020 12:20:16 PM, Old: 1000.0, New:  500.0
UVVIS SAT Changed: 5/15/2020 12:20:34 PM, Old:0.0125, New:0.1000
Common SAT Changed: 5/15/2020 12:20:34 PM, Old:0.0125, New:0.1000
Common Interval nm Changed: 5/15/2020 12:20:36 PM, Old:     5.00, New:     1.00
UVVIS SAT Changed: 5/15/2020 12:29:52 PM, Old:0.1000, New:0.0125
Common SAT Changed: 5/15/2020 12:29:52 PM, Old:0.1000, New:0.0125
Common Interval nm Changed: 5/15/2020 12:29:53 PM, Old:     1.00, New:     5.00
End Method Modifications
<Current Wavelength> , 240.0

specimen2,
specimen2
Collection Time: 5/15/2020 12:31:39 PM
Operator Name  :
Scan Version 5.1.0.1016
Parameter List :
Instrument  Cary 60
Instrument Version  2.00
Start (nm)  1000.0
Stop (nm)  190.0
X Mode  Nanometers
Y Mode  Abs
UV-Vis Scan Rate (nm/min)  240.00
UV-Vis Data Interval (nm)  0.20
UV-Vis Ave. Time (sec)  0.0500
Beam Mode  Dual Beam
Baseline Correction  Off
Cycle Mode  Off
Method Log     :
Method Name    :
Date/Time stamp: 5/15/2020 11:53:41 AM
Method Modifications:
UVVIS SAT Changed: 5/15/2020 11:54:02 AM, Old:0.0125, New:0.1000
Common SAT Changed: 5/15/2020 11:54:02 AM, Old:0.0125, New:0.1000
Y Max Abs Changed: 5/15/2020 11:54:09 AM, Old:     1.00, New:     2.00
Common Interval nm Changed: 5/15/2020 11:54:09 AM, Old:     5.00, New:     0.50
UVVIS SAT Changed: 5/15/2020 11:57:52 AM, Old:0.1000, New:0.0125
Common SAT Changed: 5/15/2020 11:57:52 AM, Old:0.1000, New:0.0125
X Start nm Changed: 5/15/2020 11:57:56 AM, Old:  800.0, New:  500.0
Common Interval nm Changed: 5/15/2020 11:57:56 AM, Old:     0.50, New:     2.00
X Start nm Changed: 5/15/2020 11:58:47 AM, Old:  500.0, New:  600.0
X Stop nm Changed: 5/15/2020 11:58:47 AM, Old:  200.0, New:  190.0
Common Interval nm Changed: 5/15/2020 11:58:47 AM, Old:     2.00, New:     5.00
UVVIS SAT Changed: 5/15/2020 12:06:39 PM, Old:0.0125, New:0.1000
Common SAT Changed: 5/15/2020 12:06:39 PM, Old:0.0125, New:0.1000
X Stop nm Changed: 5/15/2020 12:06:45 PM, Old:  190.0, New:  300.0
Common Interval nm Changed: 5/15/2020 12:06:45 PM, Old:     5.00, New:     1.00
UVVIS SAT Changed: 5/15/2020 12:07:49 PM, Old:0.1000, New:0.0125
Common SAT Changed: 5/15/2020 12:07:49 PM, Old:0.1000, New:0.0125
X Start nm Changed: 5/15/2020 12:07:53 PM, Old:  600.0, New: 1000.0
X Stop nm Changed: 5/15/2020 12:07:53 PM, Old:  300.0, New:  190.0
Common Interval nm Changed: 5/15/2020 12:07:53 PM, Old:     1.00, New:     5.00
X Start nm Changed: 5/15/2020 12:20:16 PM, Old: 1000.0, New:  500.0
UVVIS SAT Changed: 5/15/2020 12:20:34 PM, Old:0.0125, New:0.1000
Common SAT Changed: 5/15/2020 12:20:34 PM, Old:0.0125, New:0.1000
Common Interval nm Changed: 5/15/2020 12:20:36 PM, Old:     5.00, New:     1.00
UVVIS SAT Changed: 5/15/2020 12:29:52 PM, Old:0.1000, New:0.0125
Common SAT Changed: 5/15/2020 12:29:52 PM, Old:0.1000, New:0.0125
Common Interval nm Changed: 5/15/2020 12:29:53 PM, Old:     1.00, New:     5.00
UVVIS SAT Changed: 5/15/2020 12:30:14 PM, Old:0.0125, New:0.5000
Common SAT Changed: 5/15/2020 12:30:14 PM, Old:0.0125, New:0.5000
UVVIS SAT Changed: 5/15/2020 12:30:37 PM, Old:0.5000, New:0.1000
Common SAT Changed: 5/15/2020 12:30:37 PM, Old:0.5000, New:0.1000
UVVIS SAT Changed: 5/15/2020 12:31:03 PM, Old:0.1000, New:0.0500
Common SAT Changed: 5/15/2020 12:31:03 PM, Old:0.1000, New:0.0500
X Start nm Changed: 5/15/2020 12:31:26 PM, Old:  500.0, New: 1000.0
Common Interval nm Changed: 5/15/2020 12:31:26 PM, Old:     5.00, New:     0.20
End Method Modifications
<Current Wavelength> , 190.5